Participant_Number,Trial_Number,Condition,FC,Target_Contrast,Correct_Response,Reaction_Time
2,0,Seperate,0.1,0.1,0,0.2002281489999973
2,1,Seperate,0.1,0.1,1,0.2620589510000002
2,2,Seperate,0.1,0.07943282347242815,1,0.34150527299999567
2,3,Seperate,0.1,0.06309573444801932,1,0.22440166800001293
2,4,Seperate,0.1,0.05011872336272722,1,0.22451873800000044
2,5,Seperate,0.1,0.03981071705534971,1,0.23664067800001476
2,6,Seperate,0.1,0.031622776601683784,1,0.14257500400000822
2,7,Seperate,0.1,0.02511886431509579,1,0.225859354999983
2,8,Seperate,0.1,0.01995262314968879,0,0.34115540700000224
2,9,Seperate_null,0.1,0.1,1,0.4004946480000058
2,10,Seperate,0.1,0.025118864315095794,1,0.2206694220000145
2,11,Seperate,0.1,0.01995262314968879,1,0.21642766200000096
2,12,Seperate_null,0.1,0.07943282347242815,1,0.3419946890000176
2,13,Seperate,0.1,0.015848931924611127,1,0.18374202800001171
2,14,Seperate,0.1,0.012589254117941666,1,0.34795321400000034
2,15,Seperate,0.1,0.009999999999999995,1,0.3487856289999911
2,16,Seperate,0.1,0.00794328234724281,0,0.2965851809999833
2,17,Seperate,0.1,0.009999999999999995,0,0.36866471299998693
2,18,Seperate,0.1,0.012589254117941666,0,0.451694649999979
2,19,Seperate,0.1,0.015848931924611127,1,0.25435803100000953
2,20,Seperate_null,0.1,0.06309573444801932,1,0.3523457189999988
2,21,Seperate,0.1,0.012589254117941666,0,0.3388001350000138
2,22,Seperate,0.1,0.015848931924611127,1,0.28577973299999826
2,23,Seperate,0.1,0.012589254117941666,0,0.3686043520000055
2,24,Seperate,0.1,0.015848931924611127,0,0.36409003599999323
2,25,Seperate,0.1,0.01995262314968879,0,0.24026389900001277
2,26,Seperate,0.1,0.025118864315095794,1,0.2284143740000104
2,27,Seperate,0.1,0.01995262314968879,1,0.19313407600000687
2,28,Seperate,0.1,0.015848931924611127,0,0.1872884970000257
2,29,Seperate,0.1,0.01995262314968879,1,0.2384789140000123
2,30,Seperate,0.1,0.015848931924611127,1,0.2870501509999883
2,31,Seperate,0.1,0.012589254117941666,0,0.29868069000002606
2,32,Seperate,0.1,0.015848931924611127,1,0.4510774820000165
2,33,Seperate,0.1,0.012589254117941666,1,0.501915849999989
2,34,Seperate,0.1,0.009999999999999995,0,0.25734596199998805
2,35,Seperate,0.1,0.012589254117941666,1,0.30859309999999596
2,36,Seperate,0.1,0.009999999999999995,1,0.279613329
2,37,Seperate,0.1,0.00794328234724281,1,0.227463073999985
2,38,Seperate,0.1,0.0063095734448019285,0,0.31070141200001444
2,39,Seperate,0.1,0.00794328234724281,1,0.3711348709999811
2,40,Seperate,0.1,0.0063095734448019285,0,0.4052387150000527
2,41,Seperate,0.1,0.00794328234724281,0,0.28824610699996356
2,42,Seperate,0.1,0.009999999999999995,1,0.42562917599997263
2,43,Seperate,0.1,0.00794328234724281,0,0.36429463400003215
2,44,Seperate,0.1,0.009999999999999995,1,0.24734968100000287
2,45,Seperate,0.1,0.00794328234724281,1,0.33938659099999313
2,46,Seperate,0.1,0.0063095734448019285,0,0.38216030600000295
2,47,Seperate,0.1,0.00794328234724281,1,0.30566912899996623
2,48,Seperate,0.1,0.0063095734448019285,1,0.3406996350000213
2,49,Seperate,0.1,0.005011872336272719,0,0.4572484599999598
2,50,Seperate,0.1,0.0063095734448019285,0,0.3658398009999928
2,51,Seperate,0.1,0.00794328234724281,0,0.21523923700004843
2,52,Seperate,0.1,0.009999999999999995,1,0.17852362500002528
2,53,Seperate,0.1,0.00794328234724281,1,0.3073088439999765
2,54,Seperate,0.1,0.0063095734448019285,1,0.41489406099998405
2,55,Seperate,0.1,0.005011872336272719,0,0.43098557399997617
2,56,Seperate,0.1,0.0063095734448019285,0,0.37816978300003257
2,57,Seperate,0.1,0.00794328234724281,0,0.31777035400000386
2,58,Seperate,0.1,0.009999999999999995,0,0.37675375800000666
2,59,Seperate,0.1,0.012589254117941666,1,0.204211991999955
2,60,Seperate,0.1,0.009999999999999995,0,0.3164893879999795
2,61,Seperate,0.1,0.012589254117941666,1,0.2935921920000055
2,62,Seperate,0.1,0.009999999999999995,1,0.28882176799999115
2,63,Seperate,0.1,0.00794328234724281,1,0.3531916670000328
2,64,Seperate,0.1,0.0063095734448019285,0,0.4926441529999579
2,65,Seperate,0.1,0.00794328234724281,1,0.4246313760000362
2,66,Seperate,0.1,0.0063095734448019285,1,0.3613969950000069
2,67,Seperate,0.1,0.005011872336272719,0,0.34085150000004205
2,68,Seperate_null,0.1,0.05011872336272722,1,0.38394853800002693
2,69,Seperate,0.1,0.0063095734448019285,0,0.4423192759999779
2,70,Seperate,0.1,0.00794328234724281,0,0.39047355600001765
2,71,Seperate,0.1,0.009999999999999995,1,0.3293103430000315
2,72,Seperate,0.1,0.00794328234724281,1,0.41386612899998454
2,73,Seperate,0.1,0.0063095734448019285,0,0.4107300599999917
2,74,Seperate,0.1,0.00794328234724281,0,0.38040358099999594
2,75,Seperate,0.1,0.009999999999999995,1,0.36779182200001515
2,76,Seperate,0.1,0.00794328234724281,1,0.3517446000000177
2,77,Seperate,0.1,0.0063095734448019285,0,0.25979577599997583
2,78,Seperate,0.1,0.00794328234724281,1,0.27079961199996205
2,79,Seperate_null,0.1,0.03981071705534971,1,0.2876058340000327
2,80,Seperate,0.1,0.0063095734448019285,0,0.4324779879999596
2,81,Seperate,0.1,0.00794328234724281,0,0.21154558099999576
2,82,Seperate_null,0.1,0.031622776601683784,1,0.34357953699998234
2,83,Seperate,0.1,0.009999999999999995,1,0.40370408300003646
2,84,Seperate,0.1,0.00794328234724281,0,0.32625346300000047
2,85,Seperate,0.1,0.009999999999999995,1,0.2895472270000141
2,86,Seperate,0.1,0.00794328234724281,1,0.29217229600004657
2,87,Seperate_null,0.1,0.02511886431509579,1,0.2932833970000388
2,88,Seperate,0.1,0.0063095734448019285,0,0.3047396580000168
2,89,Seperate,0.1,0.00794328234724281,1,0.4174599489999764
2,90,Seperate,0.1,0.0063095734448019285,0,0.4929962309999496
2,91,Seperate,0.1,0.00794328234724281,1,0.3997798719999537
2,92,Seperate,0.1,0.0063095734448019285,1,0.5637576870000203
2,93,Seperate,0.1,0.005011872336272719,0,0.24690372099996694
2,94,Seperate,0.1,0.0063095734448019285,0,0.4584838639999589
2,95,Seperate,0.1,0.00794328234724281,1,0.5176123340000345
2,96,Seperate,0.1,0.0063095734448019285,0,0.46648486099996944
2,97,Seperate,0.1,0.00794328234724281,0,0.5158871070000259
2,98,Seperate,0.1,0.009999999999999995,1,0.4150993459999768
2,99,Seperate,0.1,0.00794328234724281,1,0.3871698419999916
2,100,Seperate,0.1,0.0063095734448019285,0,0.27642683900000975
2,101,Seperate,0.1,0.00794328234724281,0,0.3598237530000006
2,102,Seperate,0.1,0.009999999999999995,0,0.3143395299999838
2,103,Seperate_null,0.1,0.01995262314968879,1,0.358777353999983
2,104,Seperate,0.1,0.012589254117941666,1,0.24226774400000295
2,105,Seperate_null,0.1,0.015848931924611127,1,0.3818906449999986
2,106,Seperate,0.1,0.009999999999999995,0,0.42512901999998576
2,107,Seperate,0.1,0.012589254117941666,1,0.46955731100001685
2,108,Seperate,0.1,0.009999999999999995,1,0.41456257200002256
2,109,Seperate,0.1,0.00794328234724281,1,0.47295827599998574
2,110,Seperate,0.1,0.0063095734448019285,0,0.43383279599999014
2,111,Seperate,0.1,0.00794328234724281,1,0.3815716279999606
2,112,Seperate_null,0.1,0.012589254117941666,1,0.44665429700000914
2,113,Seperate,0.1,0.0063095734448019285,1,0.5621220769999695
2,114,Seperate,0.1,0.005011872336272719,0,0.38984691699999985
2,115,Seperate,0.1,0.0063095734448019285,0,0.3289471370000001
2,116,Seperate,0.1,0.00794328234724281,1,0.38822709599998007
2,117,Seperate,0.1,0.0063095734448019285,1,0.3599918540000431
2,118,Seperate,0.1,0.005011872336272719,0,0.4127711730000101
2,119,Seperate,0.1,0.0063095734448019285,0,0.3759343460000082
2,120,Seperate,0.1,0.00794328234724281,1,0.29918932600003245
2,121,Seperate,0.1,0.0063095734448019285,0,0.2939666569999986
2,122,Seperate,0.1,0.00794328234724281,0,0.3704157260000329
2,123,Seperate,0.1,0.009999999999999995,1,0.25145975100002715
2,124,Seperate,0.1,0.00794328234724281,1,0.3190077329999781
2,125,Seperate,0.1,0.0063095734448019285,1,0.38610594499999706
2,126,Seperate,0.1,0.005011872336272719,1,0.30148257299998704
2,127,Seperate,0.1,0.00398107170553497,0,0.3619123089999903
2,128,Seperate,0.1,0.00501187233627272,0,0.29377338900002314
2,129,Seperate,0.1,0.006309573444801929,0,0.2897532599999977
2,130,Seperate_null,0.1,0.009999999999999995,0,0.36659248099999786
2,131,Seperate,0.1,0.007943282347242812,0,0.3099926109999842
2,132,Seperate,0.1,0.009999999999999997,0,0.20125739400003795
2,133,Seperate_null,0.1,0.012589254117941666,1,0.30523234700001467
2,134,Seperate,0.1,0.012589254117941668,1,0.5254191509999941
2,135,Seperate,0.1,0.009999999999999997,1,0.5277296929999693
2,136,Seperate,0.1,0.007943282347242812,1,0.4828421770000091
2,137,Seperate_null,0.1,0.009999999999999995,1,0.5657799140000179
2,138,Seperate,0.1,0.006309573444801929,0,0.7687636779999707
2,139,Seperate,0.1,0.007943282347242812,0,0.6040106929999638
2,140,Seperate,0.1,0.009999999999999997,1,0.4113473410000097
2,141,Seperate,0.1,0.007943282347242812,1,0.5278674480000518
2,142,Seperate,0.1,0.006309573444801929,0,0.4569411019999734
2,143,Seperate,0.1,0.007943282347242812,1,0.5558815379999942
2,144,Seperate,0.1,0.006309573444801929,0,99
2,145,Seperate_null,0.1,0.00794328234724281,0,99
2,146,Seperate_null,0.1,0.009999999999999995,1,0.5226919120000275
2,147,Seperate,0.1,0.007943282347242812,0,0.2933504569999741
2,148,Seperate,0.1,0.009999999999999997,1,0.5846317150000004
2,149,Seperate,0.1,0.007943282347242812,1,0.4519015409999838
2,150,Seperate,0.1,0.006309573444801929,0,0.4158462479999798
2,151,Seperate,0.1,0.007943282347242812,0,0.25248775799991563
2,152,Seperate,0.1,0.009999999999999997,0,0.5527873310001041
2,153,Seperate,0.1,0.012589254117941668,0,0.41852676299993163
2,154,Seperate,0.1,0.01584893192461113,1,0.47000078099995335
2,155,Seperate,0.1,0.012589254117941668,1,0.47883079399991857
2,156,Seperate,0.1,0.009999999999999997,0,0.4260269749998997
2,157,Seperate,0.1,0.012589254117941668,0,0.3146009189999859
2,158,Seperate,0.1,0.01584893192461113,0,0.4221025890000192
2,159,Seperate_null,0.1,0.00794328234724281,1,0.3211094610001055
2,160,Seperate,0.1,0.019952623149688792,1,0.3800659349999478
2,161,Seperate,0.1,0.01584893192461113,1,0.4726387880000402
2,162,Seperate,0.1,0.012589254117941668,0,0.6376350530000536
2,163,Seperate,0.1,0.01584893192461113,1,0.47959159800007
2,164,Seperate,0.1,0.012589254117941668,0,0.45068702900005064
2,165,Seperate,0.1,0.01584893192461113,1,0.5305610569999999
2,166,Seperate,0.1,0.012589254117941668,0,0.7027953450000268
2,167,Seperate,0.1,0.01584893192461113,1,0.4575564479999912
2,168,Seperate,0.1,0.012589254117941668,1,0.5629773869999326
2,169,Seperate,0.1,0.009999999999999997,1,0.557773879000024
2,170,Seperate,0.1,0.007943282347242812,0,0.43246281099993666
2,171,Seperate,0.1,0.009999999999999997,0,0.22746027100004085
2,172,Seperate,0.1,0.012589254117941668,1,0.46304235399998106
2,173,Seperate,0.1,0.009999999999999997,0,0.14674563999994916
2,174,Seperate,0.1,0.012589254117941668,0,0.2144948720000457
2,175,Seperate,0.1,0.01584893192461113,1,0.36330617700002676
2,176,Seperate,0.1,0.012589254117941668,0,0.17286966500000744
2,177,Seperate,0.1,0.01584893192461113,1,0.1526724310000418
2,178,Seperate,0.1,0.012589254117941668,0,0.2165899530000388
2,179,Seperate,0.1,0.01584893192461113,1,0.42018886400001065
2,180,Seperate,0.1,0.012589254117941668,0,0.38420680199999424
2,181,Seperate_null,0.1,0.0063095734448019285,1,0.17076062200010256
2,182,Seperate,0.1,0.01584893192461113,0,0.22253874900002302
2,183,Seperate,0.1,0.019952623149688792,1,0.265842154999973
2,184,Seperate,0.1,0.01584893192461113,1,0.4219869529999869
2,185,Seperate,0.1,0.012589254117941668,0,0.4265758609999466
2,186,Seperate,0.1,0.01584893192461113,1,0.3489265329999398
2,187,Seperate,0.1,0.012589254117941668,0,0.5040614980000555
2,188,Seperate,0.1,0.01584893192461113,1,0.3528765660000772
2,189,Seperate,0.1,0.012589254117941668,1,0.5319629859999395
2,190,Seperate,0.1,0.009999999999999997,0,0.4474821060000522
2,191,Seperate,0.1,0.012589254117941668,0,0.36020149000000856
2,192,Seperate,0.1,0.01584893192461113,1,0.34717467999996643
2,193,Seperate,0.1,0.012589254117941668,0,0.3178665789999968
2,194,Seperate,0.1,0.01584893192461113,1,0.2578693049999856
2,195,Seperate,0.1,0.012589254117941668,0,0.34945222099997864
2,196,Seperate,0.1,0.01584893192461113,0,0.36073126999997385
2,197,Seperate_null,0.1,0.005011872336272719,1,0.32545416100003877
2,198,Seperate_null,0.1,0.00398107170553497,0,0.36930574900009105
2,199,Seperate_null,0.1,0.00501187233627272,1,0.2267820039999151
