Participant_Number,Trial_Number,Condition,FC,Target_Contrast,Correct_Response,Reaction_Time
3,0,Together,0.1,0.1,1,0.5018128050005544
3,1,Together,0.1,0.07943282347242815,1,0.5652859779993378
3,2,Together,0.1,0.06309573444801932,1,0.3589963530002933
3,3,Together,0.1,0.05011872336272722,1,0.48747956300030637
3,4,Together,0.1,0.03981071705534971,1,0.4209210709996114
3,5,Together,0.1,0.031622776601683784,1,0.42133250100050645
3,6,Together,0.1,0.02511886431509579,1,0.418177698999898
3,7,Together,0.1,0.01995262314968879,1,0.3865147349997642
3,8,Together,0.1,0.015848931924611127,1,0.4339644520005095
3,9,Together_null,0.1,0.1,1,0.367706659999385
3,10,Together,0.1,0.012589254117941666,1,0.4004713249996712
3,11,Together,0.1,0.009999999999999995,1,0.4639183529998263
3,12,Together,0.1,0.00794328234724281,1,0.41594833199997083
3,13,Together,0.1,0.0063095734448019285,0,0.5994428540006993
3,14,Together,0.1,0.00794328234724281,0,0.5918221000001722
3,15,Together,0.1,0.009999999999999995,0,0.5922873509998681
3,16,Together,0.1,0.012589254117941666,1,0.5276960390001477
3,17,Together,0.1,0.009999999999999995,0,0.569763039999998
3,18,Together,0.1,0.012589254117941666,0,0.6588918370007377
3,19,Together,0.1,0.015848931924611127,1,0.4310174590000315
3,20,Together,0.1,0.012589254117941666,0,0.3538635949998934
3,21,Together_null,0.1,0.07943282347242815,1,0.49492272600036813
3,22,Together,0.1,0.015848931924611127,0,0.41554648600049404
3,23,Together,0.1,0.01995262314968879,1,0.5270262650001314
3,24,Together,0.1,0.015848931924611127,0,0.6229272789996685
3,25,Together,0.1,0.01995262314968879,1,0.47868409999955475
3,26,Together,0.1,0.015848931924611127,1,0.3671396769996136
3,27,Together,0.1,0.012589254117941666,0,99
3,28,Together,0.1,0.015848931924611127,0,0.3760461709998708
3,29,Together,0.1,0.01995262314968879,1,0.5368821009997191
3,30,Together_null,0.1,0.06309573444801932,1,0.3688732799992067
3,31,Together,0.1,0.015848931924611127,1,0.41379581799992593
3,32,Together_null,0.1,0.05011872336272722,1,0.45380245900014415
3,33,Together,0.1,0.012589254117941666,1,0.45121684999958234
3,34,Together,0.1,0.009999999999999995,0,0.5073002589997486
3,35,Together_null,0.1,0.03981071705534971,1,0.5147850619996461
3,36,Together,0.1,0.012589254117941666,1,0.5050044820000039
3,37,Together,0.1,0.009999999999999995,1,0.37691606000043976
3,38,Together,0.1,0.00794328234724281,1,0.3532372559993746
3,39,Together,0.1,0.0063095734448019285,0,0.3692594200001622
3,40,Together,0.1,0.00794328234724281,0,0.42136566099998163
3,41,Together,0.1,0.009999999999999995,0,0.8213757499997882
3,42,Together,0.1,0.012589254117941666,0,0.4379332250000516
3,43,Together,0.1,0.015848931924611127,1,0.34699760700004845
3,44,Together,0.1,0.012589254117941666,0,0.47460117700029514
3,45,Together,0.1,0.015848931924611127,0,0.46718620200044825
3,46,Together,0.1,0.01995262314968879,1,0.5039931519995662
3,47,Together,0.1,0.015848931924611127,0,0.5921740559997488
3,48,Together,0.1,0.01995262314968879,1,0.5177578370003175
3,49,Together,0.1,0.015848931924611127,1,0.5105267509998157
3,50,Together,0.1,0.012589254117941666,0,0.6301792249996652
3,51,Together,0.1,0.015848931924611127,1,0.3664731559993015
3,52,Together,0.1,0.012589254117941666,0,0.6539657789999183
3,53,Together,0.1,0.015848931924611127,0,0.5679707220006094
3,54,Together,0.1,0.01995262314968879,0,0.5371837409993532
3,55,Together,0.1,0.025118864315095794,1,0.5759049010002855
3,56,Together,0.1,0.01995262314968879,1,0.6783639739996943
3,57,Together,0.1,0.015848931924611127,1,0.5842437100000097
3,58,Together,0.1,0.012589254117941666,0,0.6209414310005741
3,59,Together,0.1,0.015848931924611127,1,0.4449187960008203
3,60,Together,0.1,0.012589254117941666,0,0.32935891699980857
3,61,Together,0.1,0.015848931924611127,1,0.38565750699945056
3,62,Together,0.1,0.012589254117941666,0,0.35334856499957823
3,63,Together,0.1,0.015848931924611127,1,0.4180228019995411
3,64,Together,0.1,0.012589254117941666,1,0.4416306840003017
3,65,Together,0.1,0.009999999999999995,0,0.4679330500002834
3,66,Together,0.1,0.012589254117941666,1,0.5385920299995632
3,67,Together,0.1,0.009999999999999995,0,0.45333296100034204
3,68,Together,0.1,0.012589254117941666,0,0.4989250010003161
3,69,Together,0.1,0.015848931924611127,1,0.4611665570000696
3,70,Together,0.1,0.012589254117941666,1,0.5214188350000768
3,71,Together,0.1,0.009999999999999995,1,0.5291421239999181
3,72,Together,0.1,0.00794328234724281,0,0.5851711189998241
3,73,Together,0.1,0.009999999999999995,1,0.6459109269999317
3,74,Together,0.1,0.00794328234724281,0,0.5177834579999399
3,75,Together,0.1,0.009999999999999995,0,0.49318095999933576
3,76,Together,0.1,0.012589254117941666,1,0.35720908399980544
3,77,Together,0.1,0.009999999999999995,0,0.42131213799984835
3,78,Together,0.1,0.012589254117941666,0,0.45312847800050804
3,79,Together,0.1,0.015848931924611127,1,0.42877734700050496
3,80,Together,0.1,0.012589254117941666,0,0.4620682000004308
3,81,Together,0.1,0.015848931924611127,1,0.4704782580001847
3,82,Together,0.1,0.012589254117941666,0,0.4838340080004855
3,83,Together,0.1,0.015848931924611127,1,0.5319557590000841
3,84,Together,0.1,0.012589254117941666,0,0.4568465920001472
3,85,Together,0.1,0.015848931924611127,1,0.5444030870003189
3,86,Together,0.1,0.012589254117941666,0,0.46517715500067425
3,87,Together,0.1,0.015848931924611127,1,0.47210776999963855
3,88,Together_null,0.1,0.031622776601683784,1,0.4881101660002969
3,89,Together,0.1,0.012589254117941666,0,0.5441114459999881
3,90,Together,0.1,0.015848931924611127,1,0.4872911269994802
3,91,Together,0.1,0.012589254117941666,0,0.5118067860003066
3,92,Together,0.1,0.015848931924611127,1,0.5939140520004003
3,93,Together,0.1,0.012589254117941666,0,0.7135794880005051
3,94,Together,0.1,0.015848931924611127,1,0.41617749800025194
3,95,Together,0.1,0.012589254117941666,1,0.5455489840005612
3,96,Together,0.1,0.009999999999999995,0,0.4975709189993722
3,97,Together_null,0.1,0.02511886431509579,1,0.5268263540001499
3,98,Together_null,0.1,0.01995262314968879,1,0.6783068129998355
3,99,Together,0.1,0.012589254117941666,0,0.5078976700006024
3,100,Together,0.1,0.015848931924611127,0,0.441072413999791
3,101,Together,0.1,0.01995262314968879,0,0.5133584799996243
3,102,Together,0.1,0.025118864315095794,1,0.39317677400049433
3,103,Together,0.1,0.01995262314968879,0,0.3694514730004812
3,104,Together,0.1,0.025118864315095794,0,0.4506493379994936
3,105,Together,0.1,0.031622776601683784,1,0.4270399469996846
3,106,Together,0.1,0.02511886431509579,1,0.44531082899993635
3,107,Together,0.1,0.01995262314968879,1,0.497871509000106
3,108,Together,0.1,0.015848931924611127,1,0.33750111699919216
3,109,Together,0.1,0.012589254117941666,0,0.3756199059998835
3,110,Together,0.1,0.015848931924611127,1,0.7270169249995888
3,111,Together,0.1,0.012589254117941666,0,0.43878026899983524
3,112,Together,0.1,0.015848931924611127,1,0.8204500679994453
3,113,Together_null,0.1,0.015848931924611127,1,0.4442132570002286
3,114,Together,0.1,0.012589254117941666,0,0.7158309759997792
3,115,Together_null,0.1,0.012589254117941666,1,0.5312380479999774
3,116,Together,0.1,0.015848931924611127,1,0.44429925000076764
3,117,Together_null,0.1,0.009999999999999995,1,0.4521531740001592
3,118,Together,0.1,0.012589254117941666,1,0.4840819629998805
3,119,Together,0.1,0.009999999999999995,1,0.5480090390001351
3,120,Together,0.1,0.00794328234724281,0,0.3319726230001834
3,121,Together,0.1,0.009999999999999995,1,0.403879563999908
3,122,Together,0.1,0.00794328234724281,0,0.4649975259999337
3,123,Together,0.1,0.009999999999999995,0,0.4412919280002825
3,124,Together_null,0.1,0.00794328234724281,0,0.49374333400010073
3,125,Together,0.1,0.012589254117941666,0,0.5899877600004402
3,126,Together,0.1,0.015848931924611127,1,0.6462596950004809
3,127,Together,0.1,0.012589254117941666,1,0.7181388950002656
3,128,Together,0.1,0.009999999999999995,1,0.421970753000096
3,129,Together,0.1,0.00794328234724281,0,0.6860015700003714
3,130,Together,0.1,0.009999999999999995,0,0.5820957730002192
3,131,Together,0.1,0.012589254117941666,1,0.5580037459994855
3,132,Together,0.1,0.009999999999999995,0,0.567234415000712
3,133,Together,0.1,0.012589254117941666,0,0.47181427299983625
3,134,Together,0.1,0.015848931924611127,1,0.501380944999255
3,135,Together,0.1,0.012589254117941666,0,0.4132849880006688
3,136,Together,0.1,0.015848931924611127,1,0.3411621280001782
3,137,Together,0.1,0.012589254117941666,0,0.39458202500009065
3,138,Together,0.1,0.015848931924611127,1,0.41048171700003877
3,139,Together,0.1,0.012589254117941666,0,0.33595329000036145
3,140,Together,0.1,0.015848931924611127,0,0.5129352029998699
3,141,Together,0.1,0.01995262314968879,0,0.400279433999458
3,142,Together_null,0.1,0.009999999999999995,1,0.4887106460000723
3,143,Together,0.1,0.025118864315095794,1,0.4724175399996966
3,144,Together,0.1,0.01995262314968879,0,0.545459535000191
3,145,Together,0.1,0.025118864315095794,1,0.44996867299960286
3,146,Together,0.1,0.01995262314968879,1,0.44310197199956747
3,147,Together,0.1,0.015848931924611127,1,0.4245841809997728
3,148,Together,0.1,0.012589254117941666,0,0.6080618779997167
3,149,Together,0.1,0.015848931924611127,1,0.35747307399924466
3,150,Together_null,0.1,0.00794328234724281,1,0.5738669639995351
3,151,Together,0.1,0.012589254117941666,1,0.5978762760005338
3,152,Together,0.1,0.009999999999999995,0,0.6751731130007101
3,153,Together,0.1,0.012589254117941666,1,0.5869304709995049
3,154,Together,0.1,0.009999999999999995,0,0.4270833999999013
3,155,Together,0.1,0.012589254117941666,0,0.35467468700062454
3,156,Together,0.1,0.015848931924611127,1,0.4837856490003105
3,157,Together,0.1,0.012589254117941666,0,0.46737590700013243
3,158,Together,0.1,0.015848931924611127,1,0.3712366979998478
3,159,Together,0.1,0.012589254117941666,0,0.4914189790006276
3,160,Together,0.1,0.015848931924611127,0,0.442921292000392
3,161,Together,0.1,0.01995262314968879,0,0.47184722800011514
3,162,Together,0.1,0.025118864315095794,1,0.3840718879991982
3,163,Together,0.1,0.01995262314968879,0,0.47246243200061144
3,164,Together,0.1,0.025118864315095794,1,0.4137326230002145
3,165,Together,0.1,0.01995262314968879,1,0.45346338900071714
3,166,Together_null,0.1,0.0063095734448019285,1,0.510012344999268
3,167,Together,0.1,0.015848931924611127,1,0.46138036899992585
3,168,Together,0.1,0.012589254117941666,0,0.4377581829994597
3,169,Together,0.1,0.015848931924611127,1,0.34155867000026774
3,170,Together,0.1,0.012589254117941666,1,0.46196404500005883
3,171,Together,0.1,0.009999999999999995,0,0.47772525700020196
3,172,Together,0.1,0.012589254117941666,0,0.5586534889998802
3,173,Together,0.1,0.015848931924611127,1,0.7032285839995893
3,174,Together,0.1,0.012589254117941666,0,0.4772855810006149
3,175,Together,0.1,0.015848931924611127,1,0.6049077580000812
3,176,Together,0.1,0.012589254117941666,1,0.9217908439995881
3,177,Together,0.1,0.009999999999999995,1,0.7940320540001267
3,178,Together,0.1,0.00794328234724281,1,0.7215409509999517
3,179,Together,0.1,0.0063095734448019285,0,0.4799137399995743
3,180,Together,0.1,0.00794328234724281,0,0.46129847100019106
3,181,Together,0.1,0.009999999999999995,0,0.3814795859998412
3,182,Together,0.1,0.012589254117941666,0,0.40560187499977474
3,183,Together,0.1,0.015848931924611127,1,0.43014631000005465
3,184,Together_null,0.1,0.005011872336272719,1,0.43766168000001926
3,185,Together,0.1,0.012589254117941666,0,0.3919334970005366
3,186,Together,0.1,0.015848931924611127,1,0.5128913349999493
3,187,Together,0.1,0.012589254117941666,0,0.44559230400045635
3,188,Together,0.1,0.015848931924611127,1,0.6854694630001177
3,189,Together,0.1,0.012589254117941666,1,0.5068467850005618
3,190,Together_null,0.1,0.00398107170553497,1,0.5387372719997074
3,191,Together,0.1,0.009999999999999995,1,0.6168472220006151
3,192,Together,0.1,0.00794328234724281,0,0.5362427510008274
3,193,Together,0.1,0.009999999999999995,0,0.39257470699976693
3,194,Together,0.1,0.012589254117941666,0,99
3,195,Together,0.1,0.015848931924611127,1,0.6883480260003125
3,196,Together,0.1,0.012589254117941666,0,0.49674999800026853
3,197,Together_null,0.1,0.0031622776601683772,1,0.4250678059997881
3,198,Together_null,0.1,0.002511886431509578,1,0.512749802000144
3,199,Together_null,0.1,0.001995262314968878,1,0.402267010000287
